# XDI/1.0 BlueSky/1.13.0a3 BMM/2024-2.0-py310-tiled
# Beamline.name: BMM (06BM) -- Beamline for Materials Measurement (NIST)
# Beamline.collimation: paraboloid mirror, 5 nm Rh on 30 nm Pt
# Beamline.xray_source: NSLS-II three-pole wiggler
# Beamline.focusing: not in use
# Beamline.harmonic_rejection: flat mirror, Pt stripe, pitch = 7.0 mrad relative to beam
# Beamline.software: Bluesky 1.13.0a4, Ophyd 1.9.0, DataBroker 2.0.0b45, Python 3.11.6, 2024-2.3-py311-tiled
# Detector.I0: 25 cm N2, NSLS2 IC
# Detector.It: 25 cm N2, NSLS2 IC
# Detector.Ir: 25 cm N2, NSLS2 IC
# Element.edge: K
# Element.symbol: Br
# Element.reference: Br
# Element.reference_material: bromophenol blue
# Facility.name: NSLS-II
# Facility.energy: 3.0
# Facility.GUP: 318519
# Facility.SAF: 316542
# Facility.cycle: 2025-2
# Facility.current: 400.5
# Facility.mode: top-off
# Mono.name: Si(111)
# Mono.d_spacing: 3.1355285
# Mono.encoder_resolution: 5e-06
# Mono.angle_offset: 16.0812487
# Mono.direction: forward
# Mono.scan_type: step
# Mono.scan_mode: pseudo channel cut
# Sample.name: ...
# Sample.prep: 2 abs. lengths in PEG pellet. Double kapton containment.
# Sample.SDD_position: 205.0
# Sample.x: 66.174
# Sample.y: 176.101
# Sample.wheel_slot: 20
# Sample.wheel_ring: outer
# Scan.edge_energy: 13473.7
# Scan.experimenters: Malin Dixon Wilkins, John Bussey, John Mccloy, Gavin Mccloy, Seonjin Kim, Maxwell Mccloy, John McCloy
# Scan.start_time: 2025-07-09T22:01:00
# Scan.end_time: 2025-07-09T22:08:46
# Scan.uid: 29d5cdc5-f55e-423d-bff1-1223d2e4601d
# Scan.transient_id: 32786
# Scan.plot_hint: ln(I0/It)  --  ln($5/$6)
# Column.1: energy eV
# Column.2: requested_energy eV
# Column.3: measurement_time seconds
# Column.4: xmu
# Column.5: I0 nA
# Column.6: Itrans nA
# Column.7: Irefer nA
# //////////////////////////////////////////////////////////
# ...
# ----------------------------------------------------------
# energy requested_energy measurement_time xmu I0 It Ir
13273.722306 13273.700000 0.500000 -0.702461 61.075407 30.254597 24.318130
13283.781047 13283.700000 0.500000 -0.700862 60.892371 30.212200 24.311251
13293.808936 13293.700000 0.500000 -0.699248 60.698891 30.164840 24.300365
13303.821246 13303.700000 0.500000 -0.697282 60.483901 30.117176 24.290200
13313.755973 13313.700000 0.500000 -0.695375 60.429144 30.147330 24.344232
13323.798703 13323.700000 0.500000 -0.693552 60.243289 30.109445 24.337879
13333.771398 13333.700000 0.500000 -0.691949 60.104703 30.088374 24.351833
13343.751429 13343.700000 0.500000 -0.690019 60.010997 30.099493 24.384506
13353.793285 13353.700000 0.500000 -0.688716 59.915131 30.090601 24.399303
13363.710106 13363.700000 0.500000 -0.687205 59.745765 30.050929 24.398155
13373.665256 13373.700000 0.500000 -0.685300 59.583421 30.026419 24.400028
13383.682332 13383.700000 0.500000 -0.684027 59.453225 29.998971 24.400096
13393.628448 13393.700000 0.500000 -0.682788 59.317581 29.967636 24.395021
13403.707170 13403.700000 0.500000 -0.681701 59.184557 29.932937 24.386597
13413.706980 13413.700000 0.500000 -0.681321 59.075761 29.889283 24.368760
13423.729754 13423.700000 0.500000 -0.680921 58.929712 29.827320 24.322643
13433.736170 13433.700000 0.500000 -0.681936 58.760487 29.711471 24.229424
13443.702445 13443.700000 0.500000 -0.685098 58.611461 29.542570 24.068561
13445.651715 13445.700000 0.500000 -0.686014 58.579421 29.499391 24.023007
13447.664719 13447.700000 0.500000 -0.687323 58.527032 29.434436 23.954438
13449.694128 13449.700000 0.500000 -0.689135 58.513887 29.374569 23.893979
13451.676756 13451.700000 0.500000 -0.691106 58.496493 29.308010 23.825838
13453.652073 13453.700000 0.500000 -0.693257 58.461592 29.227572 23.736152
13455.707024 13455.700000 0.500000 -0.695896 58.428592 29.134107 23.629207
13457.651909 13457.700000 0.500000 -0.699378 58.403015 29.020133 23.499310
13459.636909 13459.700000 0.500000 -0.704132 58.371318 28.866825 23.325269
13461.693710 13461.700000 0.500000 -0.710175 58.336421 28.675731 23.102776
13463.695745 13463.700000 0.500000 -0.718163 58.301971 28.430782 22.813203
13464.123135 13464.200000 0.500000 -0.720401 58.292722 28.362743 22.731474
13464.629706 13464.700000 0.500000 -0.723179 58.290095 28.282776 22.635297
13465.144233 13465.200000 0.500000 -0.726001 58.275347 28.195941 22.526678
13465.627132 13465.700000 0.500000 -0.729337 58.274942 28.101842 22.410401
13466.133818 13466.200000 0.500000 -0.733129 58.265381 27.990903 22.275780
13466.640542 13466.700000 0.500000 -0.737069 58.258210 27.877390 22.131429
13467.163143 13467.200000 0.500000 -0.741913 58.246823 27.737255 21.961196
13467.654107 13467.700000 0.500000 -0.746711 58.237735 27.600184 21.783405
13468.145108 13468.200000 0.500000 -0.752340 58.224522 27.439030 21.584406
13468.667826 13468.700000 0.500000 -0.758521 58.198770 27.257885 21.354730
13469.166823 13469.200000 0.500000 -0.765361 58.158730 27.053452 21.091336
13469.657935 13469.700000 0.500000 -0.773075 58.137928 26.835980 20.808471
13470.180772 13470.200000 0.500000 -0.782201 58.134502 26.590614 20.477873
13470.656114 13470.700000 0.500000 -0.792891 58.144692 26.312495 20.104854
13471.163183 13471.200000 0.500000 -0.805607 58.161898 25.987696 19.644545
13471.670290 13471.700000 0.500000 -0.820491 58.174413 25.609267 19.092780
13472.169512 13472.200000 0.500000 -0.838926 58.164577 25.137245 18.401742
13472.652921 13472.700000 0.500000 -0.861649 58.162659 24.571682 17.547074
13473.199770 13473.200000 0.500000 -0.889687 58.152782 23.888256 16.479358
13473.675327 13473.700000 0.500000 -0.925616 58.144019 23.041738 15.152870
13474.174699 13474.200000 0.500000 -0.973720 58.137390 21.957071 13.491793
13474.666181 13474.700000 0.500000 -1.036718 58.127213 20.612883 11.573680
13475.173555 13475.200000 0.500000 -1.120557 58.117660 18.952060 9.538406
13475.673039 13475.700000 0.500000 -1.233700 58.098626 16.919081 7.570664
13476.156702 13476.200000 0.500000 -1.381191 58.071436 14.592140 5.856985
13476.672119 13476.700000 0.500000 -1.572097 58.027871 12.047127 4.469449
13477.163785 13477.200000 0.500000 -1.811385 57.991256 9.477374 3.436992
13477.687211 13477.700000 0.500000 -2.079411 57.944848 7.243330 2.700990
13478.186884 13478.200000 0.500000 -2.351312 57.858730 5.510702 2.190332
13478.678661 13478.700000 0.500000 -2.570173 57.716045 4.416565 1.871674
13479.178408 13479.200000 0.500000 -2.700644 57.586771 3.867656 1.709896
13479.678192 13479.700000 0.500000 -2.730298 57.587651 3.754705 1.666888
13480.162146 13480.200000 0.500000 -2.699896 57.672021 3.876280 1.681148
13480.662004 13480.700000 0.500000 -2.653003 57.812988 4.072309 1.700910
13481.153964 13481.200000 0.500000 -2.617679 57.942896 4.228211 1.693896
13481.685640 13481.700000 0.500000 -2.601168 58.010468 4.303616 1.654383
13482.177676 13482.200000 0.500000 -2.597643 58.040305 4.321032 1.604185
13482.701496 13482.700000 0.500000 -2.593355 58.017904 4.337926 1.572153
13483.193607 13483.200000 0.500000 -2.571229 57.989144 4.432781 1.585291
13483.693692 13483.700000 0.500000 -2.520569 57.961059 4.660872 1.661557
13484.209692 13484.200000 0.500000 -2.440468 57.957048 5.049220 1.808507
13484.686036 13484.700000 0.500000 -2.322393 57.970724 5.683377 2.047256
13485.178293 13485.200000 0.500000 -2.204601 57.980615 6.394943 2.332699
13485.678527 13485.700000 0.500000 -2.101248 57.984304 7.091694 2.618588
13486.186740 13486.200000 0.500000 -2.021328 57.981262 7.681321 2.871420
13486.702933 13486.700000 0.500000 -1.987955 57.976155 7.941298 3.008018
13487.187397 13487.200000 0.500000 -1.995162 57.965658 7.882845 3.030341
13487.703668 13487.700000 0.500000 -2.034345 57.954746 7.578514 2.952342
13488.196148 13488.200000 0.500000 -2.089165 57.953952 7.174148 2.829249
13488.696609 13488.700000 0.500000 -2.146744 57.944840 6.771667 2.699449
13489.197107 13489.200000 0.500000 -2.196254 57.929047 6.442813 2.591379
13489.681752 13489.700000 0.500000 -2.236557 57.922621 6.187622 2.505663
13490.198216 13490.200000 0.500000 -2.270879 57.912321 5.977789 2.435438
13490.674987 13490.700000 0.500000 -2.297702 57.889541 5.817293 2.380831
13491.199475 13491.200000 0.500000 -2.316933 57.854724 5.703054 2.340231
13491.700161 13491.700000 0.500000 -2.327965 57.823256 5.637416 2.315348
13492.208832 13492.200000 0.500000 -2.331870 57.819074 5.615042 2.306083
13492.701645 13492.700000 0.500000 -2.330487 57.822624 5.623155 2.303530
13493.194494 13493.200000 0.500000 -2.328377 57.841145 5.636836 2.302664
13493.695330 13493.700000 0.500000 -2.328404 57.849686 5.637520 2.295519
13494.180302 13494.200000 0.500000 -2.331978 57.850821 5.617517 2.278382
13494.681211 13494.700000 0.500000 -2.340617 57.841567 5.568303 2.250942
13495.190110 13495.200000 0.500000 -2.353458 57.833323 5.496475 2.213618
13495.691096 13495.700000 0.500000 -2.367370 57.826851 5.419934 2.177346
13496.192119 13496.200000 0.500000 -2.379046 57.823612 5.356718 2.147389
13496.709087 13496.700000 0.500000 -2.383240 57.812357 5.333257 2.134555
13497.210186 13497.200000 0.500000 -2.377289 57.804489 5.364364 2.146349
13497.735188 13497.700000 0.500000 -2.360796 57.797626 5.452925 2.179491
13498.196587 13498.200000 0.500000 -2.336929 57.773736 5.582322 2.234272
13498.697798 13498.700000 1.000000 -2.307870 115.517709 11.490881 4.607917
13499.708291 13499.690000 1.000000 -2.253344 115.442726 12.126952 4.886063
13500.718936 13500.690000 1.000000 -2.218305 115.433700 12.558416 5.099862
13501.761573 13501.710000 1.000000 -2.210174 115.438794 12.661510 5.186343
13502.780490 13502.760000 1.000000 -2.219853 115.418407 12.537329 5.177845
13503.839373 13503.820000 1.000000 -2.233725 115.374716 12.359938 5.141483
13504.914351 13504.900000 1.000000 -2.246200 115.338166 12.202833 5.101132
13506.037290 13506.000000 1.000000 -2.258603 115.297305 12.048147 5.058376
13507.160419 13507.120000 1.000000 -2.268793 115.263260 11.922483 5.018220
13508.275768 13508.260000 1.000000 -2.275145 115.224398 11.842997 4.991037
13509.423180 13509.410000 1.000000 -2.277867 115.539454 11.843100 4.990405
13510.618609 13510.590000 1.000000 -2.277066 115.486525 11.847156 4.981341
13511.806281 13511.780000 1.000000 -2.274935 115.441406 11.867795 4.969163
13513.026056 13513.000000 1.000000 -2.273421 115.396328 11.881133 4.944008
13514.246054 13514.230000 1.000000 -2.272905 115.354998 11.883006 4.907515
13515.506155 13515.480000 1.000000 -2.275219 115.309343 11.850850 4.855974
13516.766493 13516.750000 1.000000 -2.280499 115.254613 11.782845 4.793727
13518.027069 13518.040000 1.000000 -2.285608 115.216154 11.718886 4.741239
13519.367689 13519.350000 1.000000 -2.285875 115.172977 11.711367 4.720309
13520.700596 13520.680000 1.000000 -2.279107 115.123601 11.785844 4.743271
13522.049736 13522.030000 1.000000 -2.268098 115.074545 11.911241 4.795986
13523.415120 13523.400000 1.000000 -2.258045 115.028513 12.026765 4.851734
13524.804743 13524.780000 1.000000 -2.251599 114.973652 12.098777 4.893923
13526.218622 13526.190000 1.000000 -2.247981 114.887478 12.133525 4.922791
13527.616819 13527.610000 1.000000 -2.242837 114.816848 12.188598 4.960817
13529.063261 13529.050000 1.000000 -2.231303 114.803124 12.328524 5.034913
13530.541992 13530.510000 1.000000 -2.213693 114.737096 12.540336 5.135544
13532.029046 13531.990000 1.000000 -2.195914 114.667424 12.757537 5.238348
13533.524428 13533.490000 1.000000 -2.183329 114.568465 12.907956 5.312356
13535.028143 13535.010000 1.000000 -2.176713 114.336622 12.967335 5.344611
13536.556200 13536.550000 1.000000 -2.175712 112.826766 12.808915 5.288794
13538.140627 13538.110000 1.000000 -2.180616 113.289132 12.798489 5.292543
13539.709419 13539.680000 1.000000 -2.183310 113.824531 12.824385 5.308157
13541.302599 13541.280000 1.000000 -2.191708 113.990752 12.735701 5.276852
13542.912176 13542.890000 1.000000 -2.201774 114.501057 12.664596 5.251425
13544.570204 13544.530000 1.000000 -2.212618 114.462976 12.523829 5.194515
13546.204604 13546.180000 1.000000 -2.221563 114.406325 12.406158 5.147613
13547.863448 13547.850000 1.000000 -2.229275 114.344200 12.304171 5.107971
13549.570802 13549.540000 1.000000 -2.234704 114.288583 12.231597 5.081687
13551.262554 13551.250000 1.000000 -2.235515 114.214188 12.213723 5.079716
13553.002859 13552.980000 1.000000 -2.230718 114.116550 12.261972 5.104930
13554.727569 13554.730000 1.000000 -2.222422 113.957972 12.346931 5.146905
13556.508898 13556.490000 1.000000 -2.213272 112.703545 12.323266 5.145432
13558.306755 13558.280000 1.000000 -2.208455 112.879664 12.402123 5.188388
13560.089036 13560.080000 1.000000 -2.201536 113.912457 12.602486 5.282769
13561.903916 13561.910000 1.000000 -2.196287 113.893398 12.666690 5.319818
13563.743388 13563.750000 1.000000 -2.191755 113.793243 12.713039 5.351286
13565.639617 13565.610000 1.000000 -2.187459 113.176939 12.698617 5.354502
13567.488152 13567.490000 1.000000 -2.183739 113.535570 12.786343 5.399645
13569.401521 13569.390000 1.000000 -2.179055 113.643441 12.858576 5.437319
13571.347606 13571.310000 1.000000 -2.175497 113.508293 12.889064 5.453233
13573.286211 13573.250000 1.000000 -2.171491 112.388919 12.813178 5.424583
13575.217327 13575.210000 1.000000 -2.170079 112.375328 12.829737 5.435708
13577.205349 13577.180000 1.000000 -2.167127 113.423942 12.987736 5.501679
13579.210063 13579.180000 1.000000 -2.167217 113.378723 12.981392 5.497369
13581.215376 13581.190000 1.000000 -2.170490 113.312987 12.931464 5.476248
13583.229345 13583.220000 1.000000 -2.175907 113.236070 12.852876 5.443242
13585.284215 13585.280000 1.000000 -2.182035 113.164066 12.766229 5.406284
13587.363900 13587.350000 1.000000 -2.186651 113.053519 12.695022 5.377342
13589.436164 13589.440000 1.000000 -2.188997 112.802351 12.637143 5.354277
13591.549402 13591.550000 1.000000 -2.190103 112.129588 12.547882 5.317672
13593.695583 13593.680000 1.000000 -2.189700 112.227105 12.563860 5.327565
13595.818233 13595.820000 1.000000 -2.192436 111.379224 12.434870 5.279280
13597.998076 13597.990000 1.000000 -2.192636 112.854308 12.597033 5.352229
13600.194781 13600.180000 1.000000 -2.192832 112.804430 12.589009 5.354778
13602.376044 13602.380000 1.000000 -2.191247 112.693774 12.596609 5.360963
13604.614592 13604.600000 1.000000 -2.187670 112.593077 12.630443 5.378527
13606.845800 13606.850000 1.000000 -2.183293 112.576538 12.683984 5.401000
13609.093924 13609.110000 1.000000 -2.178643 112.508478 12.735398 5.422127
13611.415617 13611.390000 1.000000 -2.174025 112.413954 12.783603 5.439696
13613.705736 13613.690000 1.000000 -2.170101 112.320576 12.823194 5.451576
13616.020924 13616.010000 1.000000 -2.166486 112.299788 12.867259 5.465287
13618.353106 13618.350000 1.000000 -2.163185 112.215311 12.900093 5.474586
13620.742810 13620.700000 1.000000 -2.160911 112.091950 12.915251 5.478611
13623.109048 13623.080000 1.000000 -2.160025 112.083200 12.925684 5.481098
13625.492332 13625.470000 1.000000 -2.159356 112.018905 12.926911 5.483741
13627.917012 13627.890000 1.000000 -2.158742 111.933089 12.924951 5.484034
13630.350679 13630.320000 1.000000 -2.158730 111.792068 12.908821 5.481274
13632.801458 13632.770000 1.000000 -2.158609 111.781461 12.909158 5.488448
13635.301845 13635.250000 1.000000 -2.158675 111.713837 12.900489 5.494654
13637.770669 13637.740000 1.000000 -2.158679 111.633566 12.891172 5.499555
13640.281025 13640.250000 1.000000 -2.158589 111.562972 12.884183 5.505174
13642.824830 13642.770000 1.000000 -2.158738 111.476876 12.872313 5.508418
13645.361462 13645.320000 1.000000 -2.158438 111.399350 12.867229 5.513108
13647.899048 13647.890000 1.000000 -2.158203 111.317834 12.860836 5.517330
13650.502692 13650.470000 1.000000 -2.157214 111.187792 12.858519 5.521881
13653.115480 13653.080000 1.000000 -2.155466 110.345838 12.783477 5.494954
13655.712992 13655.700000 1.000000 -2.154669 111.079308 12.878705 5.542649
13658.376681 13658.350000 1.000000 -2.152056 111.086195 12.913201 5.561934
13661.049572 13661.010000 1.000000 -2.149572 110.998802 12.935141 5.577948
13663.690905 13663.690000 1.000000 -2.147227 110.909370 12.955055 5.592856
13666.406684 13666.390000 1.000000 -2.145318 110.820414 12.969402 5.606382
13669.156196 13669.110000 1.000000 -2.143139 110.735700 12.987760 5.620430
13671.874172 13671.850000 1.000000 -2.141039 110.640164 13.003838 5.632628
13674.617741 13674.600000 1.000000 -2.139173 110.565267 13.019302 5.646456
13677.411446 13677.380000 1.000000 -2.136959 110.480931 13.038211 5.657917
13680.198131 13680.170000 1.000000 -2.135047 110.389145 13.052309 5.667967
13682.994141 13682.990000 1.000000 -2.133098 110.297407 13.066900 5.677959
13685.864932 13685.820000 1.000000 -2.131639 110.212332 13.075889 5.686347
13688.704203 13688.670000 1.000000 -2.130695 110.133751 13.078903 5.689174
13691.569229 13691.550000 1.000000 -2.130278 110.055129 13.075019 5.691910
13694.468230 13694.440000 1.000000 -2.129558 110.319121 13.115824 5.711901
13697.384862 13697.350000 1.000000 -2.129004 110.234644 13.113045 5.714763
13700.302750 13700.270000 1.000000 -2.128616 110.129998 13.105676 5.713251
13703.246499 13703.220000 1.000000 -2.128054 110.067049 13.105549 5.714910
13706.224347 13706.190000 1.000000 -2.127519 109.978207 13.101978 5.713471
13709.195296 13709.170000 1.000000 -2.126837 109.888938 13.100272 5.713930
13712.200396 13712.180000 1.000000 -2.125830 109.803395 13.103265 5.714036
13715.223259 13715.200000 1.000000 -2.124765 109.729898 13.108451 5.720985
13718.280350 13718.250000 1.000000 -2.123238 109.645630 13.118395 5.728189
13721.338818 13721.310000 1.000000 -2.121793 109.558200 13.126896 5.735629
13724.415119 13724.390000 1.000000 -2.120058 109.471060 13.139222 5.747203
13727.525738 13727.490000 1.000000 -2.118447 109.371982 13.148496 5.757489
13730.629548 13730.610000 1.000000 -2.116782 109.297318 13.161422 5.770155
13733.775970 13733.750000 1.000000 -2.114908 109.205481 13.175035 5.781562
13736.948576 13736.900000 1.000000 -2.112934 109.119002 13.190611 5.793231
13740.114418 13740.080000 1.000000 -2.111467 109.033239 13.199594 5.804280
13743.281735 13743.270000 1.000000 -2.109677 108.948501 13.212960 5.814653
13746.533068 13746.490000 1.000000 -2.107965 108.850509 13.223698 5.822151
13749.744667 13749.720000 1.000000 -2.106275 108.755304 13.234476 5.830394
13752.974306 13752.970000 1.000000 -2.104538 108.631027 13.242343 5.834619
13756.279871 13756.250000 1.000000 -2.102978 108.558873 13.254207 5.843527
13759.578772 13759.540000 1.000000 -2.101686 108.475245 13.261120 5.849460
13762.854452 13762.850000 1.000000 -2.100287 108.375441 13.267457 5.856501
13766.197931 13766.170000 1.000000 -2.098936 108.280330 13.273740 5.863899
13769.567898 13769.520000 1.000000 -2.097786 108.188919 13.277795 5.871373
13772.939533 13772.890000 1.000000 -2.096388 108.086173 13.283739 5.881543
13776.329417 13776.270000 1.000000 -2.094850 107.991833 13.292574 5.891312
13779.745871 13779.680000 1.000000 -2.093502 107.892928 13.298315 5.899724
13783.130844 13783.100000 1.000000 -2.092187 107.787279 13.302768 5.909004
13786.600525 13786.550000 1.000000 -2.090619 107.687571 13.311323 5.917659
13790.030437 13790.010000 1.000000 -2.088884 107.590785 13.322449 5.927359
13793.536874 13793.490000 1.000000 -2.087351 107.491699 13.330609 5.937695
13797.028483 13796.990000 1.000000 -2.085837 107.373778 13.336157 5.945698
13800.521878 13800.510000 1.000000 -2.084102 107.290458 13.348955 5.957417
13804.067006 13804.050000 1.000000 -2.082382 107.174572 13.357483 5.967133
13807.638960 13807.600000 1.000000 -2.080434 107.081440 13.371902 5.981377
13811.229447 13811.180000 1.000000 -2.078825 106.979547 13.380695 5.992267
13814.780137 13814.780000 1.000000 -2.077179 106.835095 13.384632 6.000307
13818.407745 13818.390000 1.000000 -2.075234 106.778882 13.403642 6.015913
13822.053970 13822.020000 1.000000 -2.073372 106.676963 13.415798 6.026636
13825.685440 13825.680000 1.000000 -2.071475 106.536539 13.423582 6.036894
13829.368967 13829.350000 1.000000 -2.069543 106.463359 13.440302 6.048707
13833.054478 13833.040000 1.000000 -2.067649 106.345352 13.450862 6.058810
13836.767067 13836.750000 1.000000 -2.065927 106.244212 13.461222 6.068696
13840.490038 13840.480000 1.000000 -2.064100 106.139035 13.472494 6.076608
13844.265273 13844.220000 1.000000 -2.062395 106.019381 13.480264 6.084590
13848.000700 13847.990000 1.000000 -2.060780 105.886744 13.485157 6.092209
13851.805223 13851.780000 1.000000 -2.059147 105.700056 13.483390 6.097239
13855.620246 13855.580000 1.000000 -2.057495 105.548958 13.486378 6.103580
13859.420610 13859.410000 1.000000 -2.055631 105.518295 13.507610 6.118109
13863.273458 13863.250000 1.000000 -2.053813 105.398158 13.516790 6.128491
13867.153675 13867.110000 1.000000 -2.051853 105.249142 13.524161 6.135124
13871.044493 13870.990000 1.000000 -2.050035 105.084553 13.527575 6.142804
13874.937517 13874.890000 1.000000 -2.048358 104.899772 13.526452 6.149058
13878.841166 13878.810000 1.000000 -2.046464 104.594343 13.512644 6.146770
13882.805976 13882.750000 1.000000 -2.044611 104.388175 13.511021 6.152071
13886.756225 13886.710000 1.000000 -2.042673 104.096177 13.499356 6.152640
13890.700316 13890.680000 1.000000 -2.040828 103.768048 13.481654 6.151945
13894.714150 13894.680000 1.000000 -2.038737 103.427467 13.465543 6.150260
13898.738768 13898.690000 1.000000 -2.036880 103.454501 13.494093 6.171516
13902.757298 13902.730000 1.000000 -2.035014 103.303729 13.499598 6.180682
13906.795076 13906.780000 1.000000 -2.033082 103.379780 13.535653 6.205780
13910.911316 13910.850000 1.000000 -2.031085 103.241171 13.544536 6.216414
13914.945421 13914.940000 1.000000 -2.028993 103.111153 13.555797 6.226888
13919.083468 13919.050000 1.000000 -2.026995 102.908123 13.556164 6.233972
13923.207062 13923.180000 1.000000 -2.025057 102.857625 13.575794 6.249486
13927.358550 13927.330000 1.000000 -2.023157 102.780567 13.591422 6.264308
13931.504060 13931.490000 1.000000 -2.021360 102.732582 13.609516 6.279152
13935.719946 13935.680000 1.000000 -2.019022 102.639292 13.628983 6.294487
13939.878978 13939.880000 1.000000 -2.017164 102.518026 13.638200 6.305237
13944.159456 13944.110000 1.000000 -2.015053 102.378591 13.648438 6.317981
13948.391585 13948.350000 1.000000 -2.013143 102.263113 13.659106 6.329539
13952.626311 13952.610000 1.000000 -2.011140 102.137900 13.669730 6.341593
13956.931725 13956.890000 1.000000 -2.009249 101.971346 13.673270 6.350013
13961.231308 13961.190000 1.000000 -2.007578 101.742703 13.665429 6.352319
13965.525047 13965.510000 1.000000 -2.005488 101.293346 13.633537 6.343734
13969.889672 13969.850000 1.000000 -2.000915 94.508098 12.778578 5.950048
13974.248522 13974.210000 1.000000 -2.001555 101.957792 13.777048 6.424142
13978.618658 13978.590000 1.000000 -1.999460 101.810846 13.786039 6.435925
13983.025731 13982.980000 1.000000 -1.997600 101.635063 13.787865 6.442590
13987.427063 13987.400000 1.000000 -1.995090 101.483871 13.801946 6.454850
13991.839749 13991.830000 1.000000 -1.993236 101.340910 13.808082 6.464927
13996.332288 13996.280000 1.000000 -1.991225 101.206512 13.817529 6.477618
14000.810612 14000.750000 1.000000 -1.989246 101.086054 13.828422 6.490823
14005.274689 14005.240000 1.000000 -1.986993 100.958912 13.842179 6.504283
14009.775949 14009.750000 1.000000 -1.985042 100.835484 13.852262 6.517277
14014.323044 14014.280000 1.000000 -1.983123 100.718489 13.862759 6.528608
14018.855946 14018.830000 1.000000 -1.981052 100.585376 13.873147 6.539604
14023.460559 14023.400000 1.000000 -1.978673 100.670039 13.917895 6.566760
14028.008033 14027.980000 1.000000 -1.976792 100.569510 13.930174 6.580749
14032.618722 14032.590000 1.000000 -1.974838 100.431079 13.938213 6.591349
14037.249695 14037.210000 1.000000 -1.972615 100.326657 13.954696 6.604993
14041.883757 14041.860000 1.000000 -1.970590 100.195913 13.964760 6.616023
14046.503665 14046.520000 1.000000 -1.968350 100.084784 13.980561 6.632211
14051.342345 14051.200000 1.000000 -1.966276 99.952949 13.991132 6.643795
14055.951276 14055.900000 1.000000 -1.964129 99.833681 14.004477 6.657922
14060.753335 14060.620000 1.000000 -1.962094 99.658391 14.008360 6.667437
14065.411733 14065.360000 1.000000 -1.959766 99.540220 14.024366 6.680999
14070.073250 14070.110000 1.000000 -1.957902 99.214891 14.004605 6.680304
14074.893719 14074.890000 1.000000 -1.951690 92.712190 13.168273 6.286142
14079.708862 14079.690000 1.000000 -1.953988 99.112533 14.045022 6.716026
14084.509996 14084.500000 1.000000 -1.951592 99.106384 14.077843 6.737342
14089.305763 14089.330000 1.000000 -1.949377 99.001797 14.094170 6.752796
14094.209005 14094.190000 1.000000 -1.947290 98.844193 14.101122 6.763850
14099.080945 14099.060000 1.000000 -1.945220 98.655028 14.103300 6.773386
14103.930209 14103.950000 1.000000 -1.942957 98.497512 14.112691 6.784972
14108.922036 14108.860000 1.000000 -1.940934 98.037828 14.075270 6.776073
14113.865198 14113.790000 1.000000 -1.938584 98.014963 14.105094 6.797776
14118.777012 14118.730000 1.000000 -1.932072 92.808992 13.443176 6.481494
14123.744588 14123.700000 1.000000 -1.934379 98.305794 14.206557 6.861421
14128.741870 14128.690000 1.000000 -1.932067 98.028341 14.199257 6.868029
14133.725263 14133.690000 1.000000 -1.929996 97.881089 14.207314 6.878481
14138.755892 14138.720000 1.000000 -1.928047 97.752180 14.216287 6.891396
14143.816369 14143.760000 1.000000 -1.925855 97.638124 14.230858 6.906465
14148.880506 14148.820000 1.000000 -1.923546 97.471893 14.239479 6.918584
14153.948307 14153.900000 1.000000 -1.921447 97.284286 14.241926 6.927565
14159.046061 14159.000000 1.000000 -1.919554 96.862472 14.207048 6.918178
14164.173832 14164.120000 1.000000 -1.916723 90.611202 13.327838 6.498168
14169.314130 14169.260000 1.000000 -1.915023 96.891936 14.275902 6.967559
14174.458198 14174.420000 1.000000 -1.912677 96.833713 14.300837 6.986742
14179.641191 14179.600000 1.000000 -1.910595 96.669998 14.306412 6.996992
14184.819219 14184.790000 1.000000 -1.908421 96.549195 14.319640 7.011600
14190.045072 14190.010000 1.000000 -1.906369 96.409233 14.328243 7.023502
14195.274815 14195.240000 1.000000 -1.904202 96.276824 14.339616 7.036106
14200.517267 14200.490000 1.000000 -1.901936 96.138602 14.351512 7.051596
14205.790093 14205.760000 1.000000 -1.899649 96.007598 14.364762 7.064819
14211.084530 14211.050000 1.000000 -1.897704 95.863301 14.371094 7.075860
14216.400622 14216.360000 1.000000 -1.895470 95.724691 14.382418 7.090866
