# XDI/1.0 BlueSky/1.13.0a3 BMM/2024-2.0-py310-tiled
# Beamline.name: BMM (06BM) -- Beamline for Materials Measurement (NIST)
# Beamline.collimation: paraboloid mirror, 5 nm Rh on 30 nm Pt
# Beamline.xray_source: NSLS-II three-pole wiggler
# Beamline.focusing: not in use
# Beamline.harmonic_rejection: flat mirror, Pt stripe, pitch = 7.0 mrad relative to beam
# Beamline.software: Bluesky 1.13.0a4, Ophyd 1.9.0, DataBroker 2.0.0b45, Python 3.11.6, 2024-2.3-py311-tiled
# Detector.I0: 25 cm N2, NSLS2 IC
# Detector.It: 25 cm N2, NSLS2 IC
# Detector.Ir: 25 cm N2, NSLS2 IC
# Element.edge: K
# Element.symbol: Br
# Element.reference: Br
# Element.reference_material: bromophenol blue
# Facility.name: NSLS-II
# Facility.energy: 3.0
# Facility.GUP: 318519
# Facility.SAF: 316542
# Facility.cycle: 2025-2
# Facility.current: 399.7
# Facility.mode: top-off
# Mono.name: Si(111)
# Mono.d_spacing: 3.1355285
# Mono.encoder_resolution: 5e-06
# Mono.angle_offset: 16.0812487
# Mono.direction: forward
# Mono.scan_type: step
# Mono.scan_mode: pseudo channel cut
# Sample.name: ...
# Sample.prep: 2 abs. lengths in PEG pellet. Double kapton containment.
# Sample.SDD_position: 205.0
# Sample.x: 66.174
# Sample.y: 176.101
# Sample.wheel_slot: 18
# Sample.wheel_ring: outer
# Scan.edge_energy: 13473.7
# Scan.experimenters: Malin Dixon Wilkins, John Bussey, John Mccloy, Gavin Mccloy, Seonjin Kim, Maxwell Mccloy, John McCloy
# Scan.start_time: 2025-07-09T21:44:30
# Scan.end_time: 2025-07-09T21:52:15
# Scan.uid: 532ef967-8079-401c-a4c5-e7c183849fe5
# Scan.transient_id: 32778
# Scan.plot_hint: ln(I0/It)  --  ln($5/$6)
# Column.1: energy eV
# Column.2: requested_energy eV
# Column.3: measurement_time seconds
# Column.4: xmu
# Column.5: I0 nA
# Column.6: Itrans nA
# Column.7: Irefer nA
# //////////////////////////////////////////////////////////
# ...
# ----------------------------------------------------------
# energy requested_energy measurement_time xmu I0 It Ir
13273.722306 13273.700000 0.500000 -0.542007 60.960491 35.453398 28.503543
13283.788749 13283.700000 0.500000 -0.540611 60.777185 35.396162 28.491125
13293.762654 13293.700000 0.500000 -0.539207 60.584949 35.333767 28.474722
13303.790344 13303.700000 0.500000 -0.537540 60.376791 35.271114 28.453630
13313.763710 13313.700000 0.500000 -0.536067 60.318124 35.288797 28.501926
13323.767707 13323.700000 0.500000 -0.534498 60.129331 35.233574 28.487962
13333.755877 13333.700000 0.500000 -0.533142 60.006161 35.209139 28.499995
13343.774746 13343.700000 0.500000 -0.531741 59.907493 35.200503 28.520886
13353.777716 13353.700000 0.500000 -0.530432 59.813652 35.191393 28.546139
13363.725698 13363.700000 0.500000 -0.529135 59.661473 35.147443 28.540263
13373.727718 13373.700000 0.500000 -0.527906 59.487948 35.088313 28.517248
13383.744889 13383.700000 0.500000 -0.526999 59.354600 35.041403 28.505202
13393.698930 13393.700000 0.500000 -0.526346 59.224405 34.987399 28.488819
13403.636581 13403.700000 0.500000 -0.525743 59.100416 34.935209 28.468010
13413.628430 13413.700000 0.500000 -0.525718 58.982378 34.866301 28.427550
13423.698287 13423.700000 0.500000 -0.526420 58.833719 34.754016 28.349121
13433.688897 13433.700000 0.500000 -0.528502 58.692599 34.598535 28.219243
13443.734007 13443.700000 0.500000 -0.533478 58.703838 34.433393 28.057434
13445.659608 13445.700000 0.500000 -0.535019 58.670324 34.360754 27.989883
13447.680510 13447.700000 0.500000 -0.536829 58.620129 34.269278 27.902838
13449.654640 13449.700000 0.500000 -0.539172 58.602894 34.179038 27.813140
13451.676756 13451.700000 0.500000 -0.541884 58.585150 34.076148 27.709739
13453.652073 13453.700000 0.500000 -0.545100 58.557218 33.950510 27.576731
13455.643785 13455.700000 0.500000 -0.549037 58.523700 33.797774 27.423718
13457.651909 13457.700000 0.500000 -0.554189 58.497948 33.609287 27.230342
13459.652728 13459.700000 0.500000 -0.560662 58.461980 33.371899 26.976509
13461.654150 13461.700000 0.500000 -0.569068 58.435576 33.077629 26.661431
13463.664087 13463.700000 0.500000 -0.579963 58.403132 32.701034 26.255834
13464.107305 13464.200000 0.500000 -0.582986 58.389786 32.594882 26.131693
13464.613875 13464.700000 0.500000 -0.586878 58.385371 32.465817 25.991938
13465.128400 13465.200000 0.500000 -0.590968 58.372523 32.326189 25.840045
13465.627132 13465.700000 0.500000 -0.595319 58.364421 32.181371 25.674751
13466.133818 13466.200000 0.500000 -0.600221 58.358710 32.020864 25.493551
13466.648460 13466.700000 0.500000 -0.605829 58.344504 31.834049 25.291284
13467.155224 13467.200000 0.500000 -0.611636 58.337425 31.645873 25.073972
13467.646188 13467.700000 0.500000 -0.618047 58.322428 31.435552 24.831837
13468.160948 13468.200000 0.500000 -0.625215 58.310669 31.204737 24.561757
13468.644066 13468.700000 0.500000 -0.632897 58.290594 30.955285 24.271772
13469.150981 13469.200000 0.500000 -0.641291 58.253275 30.676891 23.939647
13469.642092 13469.700000 0.500000 -0.650717 58.226426 30.375084 23.578579
13470.141162 13470.200000 0.500000 -0.661497 58.227711 30.050050 23.175444
13470.656114 13470.700000 0.500000 -0.673851 58.233692 29.684153 22.704473
13471.155260 13471.200000 0.500000 -0.687902 58.252814 29.279575 22.172110
13471.646519 13471.700000 0.500000 -0.704065 58.258135 28.812770 21.530103
13472.137814 13472.200000 0.500000 -0.722926 58.259409 28.275047 20.753407
13472.652921 13472.700000 0.500000 -0.745431 58.254251 27.643384 19.810824
13473.160141 13473.200000 0.500000 -0.773193 58.245000 26.882215 18.609212
13473.675327 13473.700000 0.500000 -0.804903 58.235287 26.038812 17.193739
13474.174699 13474.200000 0.500000 -0.843535 58.231133 25.050277 15.450929
13474.697890 13474.700000 0.500000 -0.890343 58.213676 23.897582 13.436609
13475.173555 13475.200000 0.500000 -0.947844 58.196551 22.555560 11.318923
13475.680967 13475.700000 0.500000 -1.019034 58.182473 21.000588 9.306831
13476.172560 13476.200000 0.500000 -1.110597 58.155678 19.154292 7.610332
13476.680049 13476.700000 0.500000 -1.218771 58.119365 17.179692 6.363360
13477.155855 13477.200000 0.500000 -1.369255 58.078379 14.769117 5.400940
13477.655487 13477.700000 0.500000 -1.558782 58.042232 12.211626 4.603791
13478.147226 13478.200000 0.500000 -1.806354 57.959746 9.520000 3.775402
13478.662797 13478.700000 0.500000 -2.140511 57.826251 6.800063 2.850312
13479.178408 13479.200000 0.500000 -2.570592 57.690083 4.412730 1.936817
13479.686126 13479.700000 0.500000 -3.108213 57.672022 2.576828 1.154072
13480.201816 13480.200000 0.500000 -3.777687 57.762925 1.321358 0.594075
13480.685808 13480.700000 0.500000 -4.469915 57.902904 0.662889 0.289579
13481.209511 13481.200000 0.500000 -5.180447 58.027955 0.326436 0.135187
13481.677704 13481.700000 0.500000 -5.312346 58.111248 0.286509 0.107800
13482.169739 13482.200000 0.500000 -4.780583 58.126310 0.487744 0.174826
13482.685622 13482.700000 0.500000 -4.095774 58.117139 0.967235 0.346979
13483.169794 13483.200000 0.500000 -3.504793 58.083071 1.745570 0.627647
13483.669877 13483.700000 0.500000 -3.025361 58.058561 2.818180 1.013487
13484.162060 13484.200000 0.500000 -2.664580 58.052276 4.042098 1.452306
13484.670157 13484.700000 0.500000 -2.395270 58.059155 5.291979 1.916754
13485.210053 13485.200000 0.500000 -2.212348 58.074383 6.355854 2.331120
13485.702349 13485.700000 0.500000 -2.085625 58.076264 7.214785 2.672841
13486.194681 13486.200000 0.500000 -2.014936 58.068069 7.742151 2.897895
13486.687050 13486.700000 0.500000 -1.988876 58.067336 7.946468 3.018742
13487.179455 13487.200000 0.500000 -2.008794 58.054778 7.788069 2.996903
13487.656011 13487.700000 0.500000 -2.068175 58.057184 7.339375 2.861712
13488.180261 13488.200000 0.500000 -2.160691 58.045885 6.689528 2.640596
13488.664832 13488.700000 0.500000 -2.265463 58.037003 6.023198 2.403016
13489.181217 13489.200000 0.500000 -2.366674 58.031665 5.442914 2.193588
13489.689697 13489.700000 0.500000 -2.431441 58.029570 5.101385 2.073364
13490.206161 13490.200000 0.500000 -2.453123 58.012019 4.990456 2.042257
13490.674987 13490.700000 0.500000 -2.431771 57.987040 5.095962 2.095233
13491.199475 13491.200000 0.500000 -2.389739 57.951199 5.311434 2.192986
13491.700161 13491.700000 0.500000 -2.350098 57.926083 5.523818 2.280358
13492.184988 13492.200000 0.500000 -2.331139 57.909789 5.627960 2.321288
13492.677799 13492.700000 0.500000 -2.338810 57.912597 5.585224 2.297585
13493.170646 13493.200000 0.500000 -2.374646 57.937544 5.390939 2.211055
13493.671480 13493.700000 0.500000 -2.435841 57.945631 5.071640 2.070767
13494.172351 13494.200000 0.500000 -2.516017 57.952383 4.681436 1.904047
13494.697114 13494.700000 0.500000 -2.607386 57.944219 4.272052 1.732984
13495.198062 13495.200000 0.500000 -2.689418 57.940852 3.935368 1.587867
13495.683143 13495.700000 0.500000 -2.766630 57.927273 3.642092 1.467632
13496.215978 13496.200000 0.500000 -2.813585 57.919249 3.474548 1.395969
13496.701133 13496.700000 0.500000 -2.830336 57.910607 3.416322 1.372126
13497.194278 13497.200000 0.500000 -2.817570 57.905037 3.459880 1.388623
13497.655640 13497.700000 0.500000 -2.781944 57.890168 3.584446 1.438340
13498.164765 13498.200000 0.500000 -2.731875 57.877625 3.767665 1.512919
13498.689842 13498.700000 1.000000 -2.672811 115.738707 7.992664 3.214649
13499.732162 13499.690000 1.000000 -2.552840 115.654025 9.004850 3.644784
13500.726894 13500.690000 1.000000 -2.439214 115.650135 10.088085 4.116173
13501.729734 13501.710000 1.000000 -2.331786 115.664976 11.233633 4.619363
13502.780490 13502.760000 1.000000 -2.234339 115.627819 12.379452 5.137254
13503.831411 13503.820000 1.000000 -2.158705 115.588670 13.347548 5.575826
13504.954168 13504.900000 1.000000 -2.106525 115.555063 14.058425 5.903772
13506.021361 13506.000000 1.000000 -2.073956 115.515003 14.518795 6.121605
13507.120588 13507.120000 1.000000 -2.049685 115.477579 14.870683 6.286246
13508.283736 13508.260000 1.000000 -2.038670 115.441000 15.030626 6.362461
13509.447086 13509.410000 1.000000 -2.046707 115.404712 14.905616 6.306241
13510.610639 13510.590000 1.000000 -2.064702 115.367904 14.635118 6.178758
13511.782366 13511.780000 1.000000 -2.080538 115.325748 14.399926 6.056646
13513.010110 13513.000000 1.000000 -2.088126 115.289709 14.286596 5.970461
13514.254028 13514.230000 1.000000 -2.085846 115.256626 14.315099 5.936470
13515.498179 13515.480000 1.000000 -2.072857 115.211966 14.496640 5.963270
13516.758516 13516.750000 1.000000 -2.049876 115.168147 14.828005 6.058899
13518.074944 13518.040000 1.000000 -2.023656 115.127274 15.216526 6.180952
13519.375670 13519.350000 1.000000 -2.006499 115.084934 15.474162 6.265002
13520.692614 13520.680000 1.000000 -2.005276 115.037567 15.486725 6.258930
13522.073688 13522.030000 1.000000 -2.021637 114.992453 15.229420 6.157409
13523.431091 13523.400000 1.000000 -2.049458 114.954191 14.806643 5.996639
13524.788769 13524.780000 1.000000 -2.078405 114.901105 14.377538 5.837043
13526.218622 13526.190000 1.000000 -2.105364 114.812942 13.984364 5.695888
13527.648781 13527.610000 1.000000 -2.131915 114.736915 13.608936 5.562015
13529.071253 13529.050000 1.000000 -2.157022 114.742059 13.272103 5.438526
13530.518010 13530.510000 1.000000 -2.176627 114.693332 13.008911 5.346273
13532.037042 13531.990000 1.000000 -2.186595 114.627470 12.872485 5.304644
13533.500435 13533.490000 1.000000 -2.187311 114.532301 12.852592 5.307812
13535.020143 13535.010000 1.000000 -2.184374 114.320667 12.866583 5.321856
13536.588204 13536.550000 1.000000 -2.184423 112.813685 12.696345 5.260601
13538.124620 13538.110000 1.000000 -2.196110 113.194891 12.591234 5.224019
13539.685404 13539.680000 1.000000 -2.213402 113.792660 12.440734 5.166768
13541.302599 13541.280000 1.000000 -2.236614 113.936003 12.170598 5.059399
13542.920184 13542.890000 1.000000 -2.257120 114.472874 11.979750 4.983729
13544.530150 13544.530000 1.000000 -2.272941 114.447711 11.789118 4.907229
13546.212617 13546.180000 1.000000 -2.281822 114.388045 11.678789 4.862514
13547.879477 13547.850000 1.000000 -2.285173 114.328275 11.633636 4.845663
13549.546752 13549.540000 1.000000 -2.285427 114.268797 11.624637 4.846208
13551.270573 13551.250000 1.000000 -2.286675 114.489713 11.632579 4.853448
13553.010879 13552.980000 1.000000 -2.292612 114.408553 11.555530 4.827302
13554.743615 13554.730000 1.000000 -2.303604 114.250836 11.413444 4.773908
13556.492848 13556.490000 1.000000 -2.315152 113.007047 11.159584 4.674825
13558.314782 13558.280000 1.000000 -2.329334 113.131862 11.014587 4.623247
13560.105094 13560.080000 1.000000 -2.338570 114.225506 11.018816 4.632646
13561.911947 13561.910000 1.000000 -2.346134 114.201115 10.933448 4.606951
13563.791591 13563.750000 1.000000 -2.350896 114.094100 10.871315 4.591441
13565.663725 13565.610000 1.000000 -2.352638 113.480748 10.794049 4.565438
13567.512267 13567.490000 1.000000 -2.352357 113.842230 10.831481 4.589524
13569.385440 13569.390000 1.000000 -2.345934 113.944898 10.911099 4.627961
13571.339563 13571.310000 1.000000 -2.334503 113.810611 11.023542 4.679097
13573.286211 13573.250000 1.000000 -2.316881 112.698377 11.109870 4.718021
13575.233422 13575.210000 1.000000 -2.297285 112.660002 11.325871 4.813726
13577.197299 13577.180000 1.000000 -2.276701 113.734184 11.671656 4.960116
13579.226168 13579.180000 1.000000 -2.260385 113.703030 11.860402 5.040858
13581.215376 13581.190000 1.000000 -2.248570 113.625122 11.993137 5.096309
13583.213231 13583.220000 1.000000 -2.237855 113.560125 12.115395 5.148582
13585.292275 13585.280000 1.000000 -2.226331 113.499864 12.249324 5.205765
13587.388086 13587.350000 1.000000 -2.216549 113.406537 12.359559 5.251758
13589.452293 13589.440000 1.000000 -2.208811 113.161098 12.428611 5.283613
13591.565536 13591.550000 1.000000 -2.202806 112.459206 12.425923 5.286030
13593.703653 13593.680000 1.000000 -2.197304 112.615879 12.511884 5.325063
13595.826305 13595.820000 1.000000 -2.193902 111.687139 12.450977 5.303462
13598.014226 13597.990000 1.000000 -2.187211 113.194679 12.703758 5.417014
13600.202859 13600.180000 1.000000 -2.180070 113.160451 12.790939 5.458909
13602.392204 13602.380000 1.000000 -2.173548 113.047355 12.861768 5.493764
13604.622675 13604.600000 1.000000 -2.168550 112.946835 12.914709 5.518510
13606.886228 13606.850000 1.000000 -2.164958 112.935028 12.959831 5.539230
13609.150542 13609.110000 1.000000 -2.161873 112.875135 12.992981 5.552245
13611.415617 13611.390000 1.000000 -2.158296 112.762439 13.026525 5.562368
13613.730018 13613.690000 1.000000 -2.154366 112.680180 13.068281 5.575804
13616.045213 13616.010000 1.000000 -2.149911 112.674847 13.126002 5.595952
13618.369305 13618.350000 1.000000 -2.145467 112.608356 13.176684 5.612204
13620.734708 13620.700000 1.000000 -2.142657 112.475500 13.198169 5.618634
13623.100943 13623.080000 1.000000 -2.142815 112.486083 13.197325 5.616498
13625.500439 13625.470000 1.000000 -2.145350 112.424354 13.156694 5.600096
13627.892680 13627.890000 1.000000 -2.149568 112.355500 13.093292 5.574822
13630.350679 13630.320000 1.000000 -2.155072 112.204596 13.003936 5.542348
13632.793341 13632.770000 1.000000 -2.161317 112.204411 12.922959 5.513808
13635.253128 13635.250000 1.000000 -2.167496 112.136842 12.835622 5.486284
13637.778792 13637.740000 1.000000 -2.172294 112.054604 12.764809 5.463487
13640.272900 13640.250000 1.000000 -2.176470 111.984311 12.703644 5.446374
13642.767929 13642.770000 1.000000 -2.180281 111.910053 12.646933 5.430883
13645.345199 13645.320000 1.000000 -2.183381 111.817070 12.597308 5.416045
13647.899048 13647.890000 1.000000 -2.185873 111.731524 12.556344 5.404698
13650.478278 13650.470000 1.000000 -2.187444 111.607099 12.522671 5.396079
13653.091057 13653.080000 1.000000 -2.188264 110.783730 12.420097 5.357365
13655.688559 13655.700000 1.000000 -2.189877 111.484505 12.478516 5.388032
13658.376681 13658.350000 1.000000 -2.190455 111.505497 12.473661 5.389813
13661.025120 13661.010000 1.000000 -2.191109 111.406278 12.454403 5.387242
13663.707213 13663.690000 1.000000 -2.191908 111.326754 12.435580 5.385535
13666.406684 13666.390000 1.000000 -2.192987 111.238350 12.412308 5.381943
13669.139876 13669.110000 1.000000 -2.194986 111.155216 12.378253 5.373709
13671.874172 13671.850000 1.000000 -2.197779 111.069920 12.334264 5.359827
13674.617741 13674.600000 1.000000 -2.201228 110.981357 12.281992 5.343442
13677.419617 13677.380000 1.000000 -2.204089 110.899889 12.237912 5.328686
13680.206305 13680.170000 1.000000 -2.204985 110.811647 12.217223 5.322289
13683.018673 13682.990000 1.000000 -2.203223 110.728606 12.229598 5.332333
13685.881293 13685.820000 1.000000 -2.200373 110.636564 12.254305 5.346350
13688.720572 13688.670000 1.000000 -2.198031 110.563864 12.274972 5.357445
13691.569229 13691.550000 1.000000 -2.194964 110.480306 12.303371 5.373575
13694.509186 13694.440000 1.000000 -2.188155 110.399563 12.378379 5.410272
13697.368473 13697.350000 1.000000 -2.180854 110.309373 12.458896 5.448306
13700.286354 13700.270000 1.000000 -2.176235 110.209688 12.505268 5.467768
13703.271104 13703.220000 1.000000 -2.170013 110.136119 12.574917 5.500999
13706.216142 13706.190000 1.000000 -2.165281 110.056179 12.625394 5.523549
13709.211713 13709.170000 1.000000 -2.161938 109.957875 12.656351 5.540580
13712.225033 13712.180000 1.000000 -2.157763 109.877788 12.700052 5.558278
13715.215043 13715.200000 1.000000 -2.154194 109.791346 12.735433 5.575890
13718.296789 13718.250000 1.000000 -2.150061 109.710783 12.778785 5.597954
13721.355265 13721.310000 1.000000 -2.146192 109.629255 12.818791 5.619588
13724.398664 13724.390000 1.000000 -2.142264 109.534463 12.858118 5.641664
13727.517507 13727.490000 1.000000 -2.138412 109.444651 12.897158 5.666120
13730.662487 13730.610000 1.000000 -2.135072 109.363870 12.930752 5.686449
13733.792447 13733.750000 1.000000 -2.132469 109.278903 12.954380 5.703453
13736.923849 13736.900000 1.000000 -2.130451 109.196436 12.970752 5.716429
13740.130911 13740.080000 1.000000 -2.128252 109.104652 12.988385 5.729426
13743.289985 13743.270000 1.000000 -2.125308 109.015917 13.016082 5.747233
13746.524814 13746.490000 1.000000 -2.121656 108.914412 13.051544 5.764941
13749.777699 13749.720000 1.000000 -2.117810 108.818623 13.090311 5.783851
13753.032139 13752.970000 1.000000 -2.114780 108.694165 13.115014 5.798560
13756.271605 13756.250000 1.000000 -2.112438 108.621797 13.137018 5.809959
13759.587042 13759.540000 1.000000 -2.110837 108.528906 13.146814 5.816079
13762.895821 13762.850000 1.000000 -2.110142 108.428440 13.143777 5.819899
13766.197931 13766.170000 1.000000 -2.110313 108.335725 13.130296 5.820530
13769.551334 13769.520000 1.000000 -2.111277 108.236326 13.105600 5.813888
13772.898102 13772.890000 1.000000 -2.112429 108.138201 13.078643 5.808863
13776.246515 13776.270000 1.000000 -2.113793 108.044783 13.049540 5.801602
13779.679516 13779.680000 1.000000 -2.115004 108.301411 13.064701 5.815227
13783.122545 13783.100000 1.000000 -2.115711 108.190735 13.042123 5.811196
13786.534103 13786.550000 1.000000 -2.115641 108.095801 13.031592 5.811836
13789.997209 13790.010000 1.000000 -2.115226 108.003786 13.025908 5.814682
13793.503629 13793.490000 1.000000 -2.114536 107.885465 13.020624 5.817578
13796.978590 13796.990000 1.000000 -2.114077 107.796994 13.015908 5.821803
13800.505239 13800.510000 1.000000 -2.113089 107.688259 13.015642 5.825612
13804.067006 13804.050000 1.000000 -2.112528 107.591666 13.011255 5.832777
13807.605646 13807.600000 1.000000 -2.111807 107.485108 13.007755 5.836321
13811.212782 13811.180000 1.000000 -2.110885 107.377067 13.006662 5.842401
13814.813485 13814.780000 1.000000 -2.109853 107.213402 13.000247 5.847289
13818.407745 13818.390000 1.000000 -2.108860 107.169522 13.007829 5.856265
13822.087354 13822.020000 1.000000 -2.107751 107.061393 13.009125 5.861950
13825.743893 13825.680000 1.000000 -2.106495 106.915924 13.007781 5.867532
13829.402387 13829.350000 1.000000 -2.105543 106.826455 13.009272 5.875297
13833.087916 13833.040000 1.000000 -2.103707 106.712127 13.019235 5.882762
13836.817251 13836.750000 1.000000 -2.102130 106.629068 13.029627 5.891616
13840.515144 13840.480000 1.000000 -2.100047 106.523151 13.043834 5.902361
13844.273646 13844.220000 1.000000 -2.097866 106.405151 13.057826 5.913660
13848.017455 13847.990000 1.000000 -2.095460 106.268470 13.072472 5.924905
13851.830370 13851.780000 1.000000 -2.093004 106.108425 13.084880 5.937443
13855.628633 13855.580000 1.000000 -2.089723 105.950785 13.108378 5.951386
13859.437393 13859.410000 1.000000 -2.086560 105.918374 13.145881 5.973638
13863.273458 13863.250000 1.000000 -2.083135 105.796105 13.175762 5.991614
13867.145274 13867.110000 1.000000 -2.079649 105.650640 13.203591 6.009191
13871.036087 13870.990000 1.000000 -2.076165 105.489832 13.229511 6.028370
13874.903875 13874.890000 1.000000 -2.072895 105.299804 13.248930 6.041198
13878.832750 13878.810000 1.000000 -2.069822 105.015743 13.253851 6.049456
13882.789135 13882.750000 1.000000 -2.066905 104.784788 13.263332 6.060491
13886.722524 13886.710000 1.000000 -2.063581 104.485807 13.269526 6.067401
13890.675026 13890.680000 1.000000 -2.060611 104.173084 13.269167 6.074213
13894.705715 13894.680000 1.000000 -2.057754 103.849887 13.265837 6.079648
13898.696569 13898.690000 1.000000 -2.055342 103.876594 13.301297 6.102593
13902.774188 13902.730000 1.000000 -2.052884 103.758810 13.318914 6.117683
13906.803526 13906.780000 1.000000 -2.050508 103.804763 13.356503 6.142536
13910.860588 13910.850000 1.000000 -2.048150 103.675907 13.371424 6.156208
13914.979260 13914.940000 1.000000 -2.045456 103.560503 13.392572 6.171482
13919.091933 13919.050000 1.000000 -2.043290 103.371074 13.397056 6.181518
13923.207062 13923.180000 1.000000 -2.040773 103.338203 13.426547 6.201036
13927.375500 13927.330000 1.000000 -2.038535 103.267644 13.447446 6.217398
13931.478620 13931.490000 1.000000 -2.036382 103.257564 13.475111 6.236990
13935.669035 13935.680000 1.000000 -2.034352 103.170297 13.491084 6.251794
13939.853506 13939.880000 1.000000 -2.032229 103.061964 13.505554 6.264097
13944.108482 13944.110000 1.000000 -2.030663 102.929002 13.509272 6.272881
13948.340580 13948.350000 1.000000 -2.029375 102.828788 13.513514 6.282966
13952.617805 13952.610000 1.000000 -2.027724 102.684124 13.516802 6.289341
13956.906191 13956.890000 1.000000 -2.026550 102.540720 13.513782 6.295809
13961.180209 13961.190000 1.000000 -2.025433 102.332339 13.501397 6.296744
13965.525047 13965.510000 1.000000 -2.024030 101.905338 13.463937 6.284482
13969.864090 13969.850000 1.000000 -2.020882 95.105858 12.605190 5.889639
13974.231456 13974.210000 1.000000 -2.021351 102.526061 13.582280 6.352933
13978.661349 13978.590000 1.000000 -2.019789 102.401293 13.586952 6.361301
13983.025731 13982.980000 1.000000 -2.018314 102.253901 13.587427 6.367663
13987.444161 13987.400000 1.000000 -2.016757 102.117995 13.590518 6.377407
13991.891076 13991.830000 1.000000 -2.014979 101.999919 13.598961 6.388217
13996.332288 13996.280000 1.000000 -2.013294 101.876834 13.605451 6.398403
14000.776350 14000.750000 1.000000 -2.011566 101.759682 13.613314 6.409465
14005.266118 14005.240000 1.000000 -2.009707 101.649930 13.623929 6.423031
14009.793102 14009.750000 1.000000 -2.007724 101.539333 13.636118 6.436500
14014.288715 14014.280000 1.000000 -2.005525 101.409838 13.648717 6.447399
14018.838770 14018.830000 1.000000 -2.003461 101.285989 13.660212 6.459596
14023.443371 14023.400000 1.000000 -2.001344 101.154693 13.671413 6.472283
14028.016633 14027.980000 1.000000 -1.998888 101.036345 13.689002 6.484899
14032.618722 14032.590000 1.000000 -1.996480 100.923328 13.706652 6.500797
14037.266917 14037.210000 1.000000 -1.994225 100.811812 13.722409 6.516481
14041.875140 14041.860000 1.000000 -1.991650 100.695581 13.741927 6.530156
14046.564020 14046.520000 1.000000 -1.989283 100.575983 13.758133 6.547973
14051.247437 14051.200000 1.000000 -1.986724 100.462023 13.777758 6.563522
14055.934009 14055.900000 1.000000 -1.983969 100.341036 13.799130 6.580865
14060.615100 14060.620000 1.000000 -1.981459 100.172781 13.810615 6.594435
14065.411733 14065.360000 1.000000 -1.978529 100.026542 13.830917 6.611088
14070.133810 14070.110000 1.000000 -1.975671 99.701706 13.825464 6.615319
14074.928349 14074.890000 1.000000 -1.969667 93.045352 12.980140 6.215158
14079.734852 14079.690000 1.000000 -1.970152 99.661842 13.896411 6.664578
14084.536004 14084.500000 1.000000 -1.967335 99.646025 13.933404 6.690241
14089.409867 14089.330000 1.000000 -1.964482 99.537782 13.958040 6.710468
14094.261093 14094.190000 1.000000 -1.961748 99.373308 13.973123 6.724442
14099.133070 14099.060000 1.000000 -1.959118 99.185730 13.983474 6.736263
14104.025837 14103.950000 1.000000 -1.956426 99.021802 13.997989 6.750130
14108.948135 14108.860000 1.000000 -1.954043 98.571172 13.967536 6.744314
14113.856492 14113.790000 1.000000 -1.951489 98.540018 13.998831 6.768413
14118.829284 14118.730000 1.000000 -1.944931 93.034435 13.303649 6.435786
14123.788179 14123.700000 1.000000 -1.946710 98.797223 14.102599 6.834897
14128.698248 14128.690000 1.000000 -1.944018 98.417864 14.086322 6.833679
14135.253284 14133.690000 1.000000 -1.941753 98.549020 14.137080 6.868210
14139.096639 14138.720000 1.000000 -1.939647 98.462432 14.154442 6.882014
14143.790140 14143.760000 1.000000 -1.937651 98.338553 14.164868 6.896068
14148.836759 14148.820000 1.000000 -1.935468 98.198988 14.175682 6.909250
14153.887016 14153.900000 1.000000 -1.933519 97.998844 14.174386 6.916393
14159.011013 14159.000000 1.000000 -1.931511 97.562576 14.139655 6.906677
14164.138758 14164.120000 1.000000 -1.929176 91.228694 13.252600 6.482000
14169.270255 14169.260000 1.000000 -1.927384 97.608906 14.204862 6.955867
14174.440635 14174.420000 1.000000 -1.925442 97.545305 14.223213 6.971964
14179.641191 14179.600000 1.000000 -1.923265 97.370087 14.228595 6.982095
14184.828013 14184.790000 1.000000 -1.921448 97.255946 14.237773 6.996889
14190.036271 14190.010000 1.000000 -1.919326 97.096245 14.244587 7.006591
14195.274815 14195.240000 1.000000 -1.917273 96.957072 14.253393 7.018127
14200.534895 14200.490000 1.000000 -1.915485 96.822701 14.259111 7.030176
14205.781273 14205.760000 1.000000 -1.913382 96.659412 14.265038 7.040755
14211.084530 14211.050000 1.000000 -1.911249 96.513978 14.273992 7.052151
14216.409456 14216.360000 1.000000 -1.909189 96.363467 14.281115 7.064562
