# XDI/1.0 BlueSky/1.13.0a3 BMM/2024-2.0-py310-tiled
# Beamline.name: BMM (06BM) -- Beamline for Materials Measurement (NIST)
# Beamline.collimation: paraboloid mirror, 5 nm Rh on 30 nm Pt
# Beamline.xray_source: NSLS-II three-pole wiggler
# Beamline.focusing: not in use
# Beamline.harmonic_rejection: flat mirror, Pt stripe, pitch = 7.0 mrad relative to beam
# Beamline.software: Bluesky 1.13.0a4, Ophyd 1.9.0, DataBroker 2.0.0b45, Python 3.11.6, 2024-2.3-py311-tiled
# Detector.I0: 25 cm N2, NSLS2 IC
# Detector.It: 25 cm N2, NSLS2 IC
# Detector.Ir: 25 cm N2, NSLS2 IC
# Element.edge: K
# Element.symbol: Br
# Element.reference: Br
# Element.reference_material: bromophenol blue
# Facility.name: NSLS-II
# Facility.energy: 3.0
# Facility.GUP: 318519
# Facility.SAF: 316542
# Facility.cycle: 2025-2
# Facility.current: 400.1
# Facility.mode: top-off
# Mono.name: Si(111)
# Mono.d_spacing: 3.1355285
# Mono.encoder_resolution: 5e-06
# Mono.angle_offset: 16.0812487
# Mono.direction: forward
# Mono.scan_type: step
# Mono.scan_mode: pseudo channel cut
# Sample.name: ...
# Sample.prep: 2 abs. lengths in PEG pellet. Double kapton containment.
# Sample.SDD_position: 205.0
# Sample.x: 66.174
# Sample.y: 176.101
# Sample.wheel_slot: 19
# Sample.wheel_ring: outer
# Scan.edge_energy: 13473.7
# Scan.experimenters: Malin Dixon Wilkins, John Bussey, John Mccloy, Gavin Mccloy, Seonjin Kim, Maxwell Mccloy, John McCloy
# Scan.start_time: 2025-07-09T21:52:45
# Scan.end_time: 2025-07-09T22:00:28
# Scan.uid: d91ab3cc-bfa5-4534-b5ea-ddf6ee773bf5
# Scan.transient_id: 32782
# Scan.plot_hint: ln(I0/It)  --  ln($5/$6)
# Column.1: energy eV
# Column.2: requested_energy eV
# Column.3: measurement_time seconds
# Column.4: xmu
# Column.5: I0 nA
# Column.6: Itrans nA
# Column.7: Irefer nA
# //////////////////////////////////////////////////////////
# ...
# ----------------------------------------------------------
# energy requested_energy measurement_time xmu I0 It Ir
13273.691545 13273.700000 0.500000 -0.524201 61.082777 36.162728 29.086242
13283.788749 13283.700000 0.500000 -0.522791 60.903534 36.107486 29.077267
13293.778081 13293.700000 0.500000 -0.521369 60.702447 36.039495 29.053150
13303.805795 13303.700000 0.500000 -0.519781 60.492393 35.971839 29.033279
13313.802396 13313.700000 0.500000 -0.518186 60.434338 35.994707 29.084634
13323.790954 13323.700000 0.500000 -0.516655 60.238438 35.932991 29.065264
13333.779159 13333.700000 0.500000 -0.515286 60.104276 35.902074 29.072239
13343.720339 13343.700000 0.500000 -0.513859 60.002079 35.892192 29.099087
13353.746579 13353.700000 0.500000 -0.512635 59.906946 35.879190 29.119335
13363.795862 13363.700000 0.500000 -0.511317 59.745392 35.829607 29.109140
13373.704295 13373.700000 0.500000 -0.509970 59.571310 35.773388 29.091631
13383.666693 13383.700000 0.500000 -0.508834 59.445421 35.738345 29.089245
13393.675436 13393.700000 0.500000 -0.507905 59.306251 35.687832 29.075292
13403.636581 13403.700000 0.500000 -0.507113 59.175391 35.637299 29.058531
13413.691270 13413.700000 0.500000 -0.506583 59.058784 35.585932 29.033581
13423.706154 13423.700000 0.500000 -0.506404 58.911260 35.503379 28.976155
13433.744048 13433.700000 0.500000 -0.507383 58.752165 35.372848 28.872537
13443.726117 13443.700000 0.500000 -0.509781 58.602712 35.198373 28.698963
13445.691180 13445.700000 0.500000 -0.510660 58.569723 35.147671 28.647508
13447.641033 13447.700000 0.500000 -0.511623 58.514745 35.080862 28.577853
13449.638844 13449.700000 0.500000 -0.512766 58.494018 35.028359 28.518208
13451.676756 13451.700000 0.500000 -0.514494 58.479131 34.958990 28.441565
13453.652073 13453.700000 0.500000 -0.516151 58.445310 34.880923 28.348601
13455.635880 13455.700000 0.500000 -0.518575 58.422464 34.782884 28.238294
13457.691445 13457.700000 0.500000 -0.521760 58.389827 34.652900 28.086260
13459.660638 13459.700000 0.500000 -0.525431 58.353160 34.504234 27.903208
13461.638326 13461.700000 0.500000 -0.530544 58.325433 34.311967 27.671523
13463.632430 13463.700000 0.500000 -0.537280 58.289400 34.060556 27.356923
13464.123135 13464.200000 0.500000 -0.539409 58.279715 33.982468 27.258662
13464.621791 13464.700000 0.500000 -0.541770 58.272428 33.898086 27.153075
13465.136316 13465.200000 0.500000 -0.544430 58.262048 33.802047 27.032771
13465.650882 13465.700000 0.500000 -0.547351 58.251318 33.697218 26.902207
13466.157570 13466.200000 0.500000 -0.550495 58.239956 33.584894 26.751665
13466.656378 13466.700000 0.500000 -0.554160 58.221751 33.451585 26.589964
13467.139387 13467.200000 0.500000 -0.557912 58.218533 33.324473 26.414756
13467.622431 13467.700000 0.500000 -0.562215 58.214488 33.179081 26.225810
13468.121349 13468.200000 0.500000 -0.566967 58.197226 33.011990 26.000651
13468.636145 13468.700000 0.500000 -0.572760 58.180485 32.811851 25.741843
13469.135139 13469.200000 0.500000 -0.578974 58.142890 32.587517 25.443879
13469.642092 13469.700000 0.500000 -0.585968 58.118744 32.346971 25.115044
13470.164928 13470.200000 0.500000 -0.594678 58.114190 32.063944 24.722874
13470.664037 13470.700000 0.500000 -0.604827 58.118204 31.742346 24.269473
13471.155260 13471.200000 0.500000 -0.616551 58.133169 31.380448 23.746690
13471.670290 13471.700000 0.500000 -0.631122 58.147566 30.934182 23.080963
13472.185361 13472.200000 0.500000 -0.649144 58.148283 30.382049 22.257103
13472.676696 13472.700000 0.500000 -0.671304 58.144514 29.714279 21.234759
13473.152216 13473.200000 0.500000 -0.699610 58.131277 28.878392 19.949562
13473.675327 13473.700000 0.500000 -0.736945 58.123149 27.816208 18.325860
13474.142991 13474.200000 0.500000 -0.787107 58.117490 26.452730 16.311273
13474.674108 13474.700000 0.500000 -0.858553 58.102916 24.622558 13.858269
13475.157699 13475.200000 0.500000 -0.953771 58.089646 22.381097 11.303682
13475.665110 13475.700000 0.500000 -1.087154 58.073504 19.580914 8.753363
13476.188418 13476.200000 0.500000 -1.262541 58.042714 16.422265 6.591785
13476.680049 13476.700000 0.500000 -1.469139 58.002259 13.347679 4.969458
13477.171715 13477.200000 0.500000 -1.701636 57.966470 10.572213 3.876076
13477.687211 13477.700000 0.500000 -1.940784 57.919545 8.316748 3.175348
13478.171020 13478.200000 0.500000 -2.142235 57.838044 6.789737 2.779706
13478.678661 13478.700000 0.500000 -2.284375 57.697529 5.875781 2.562714
13479.162543 13479.200000 0.500000 -2.361540 57.575706 5.427943 2.444165
13479.638526 13479.700000 0.500000 -2.387981 57.556400 5.284534 2.375417
13480.193882 13480.200000 0.500000 -2.384673 57.652659 5.310910 2.318408
13480.669939 13480.700000 0.500000 -2.365065 57.787577 5.428749 2.274690
13481.193640 13481.200000 0.500000 -2.331120 57.919024 5.628967 2.249192
13481.685640 13481.700000 0.500000 -2.284469 57.989830 5.904996 2.262384
13482.193548 13482.200000 0.500000 -2.228161 58.149436 6.264230 2.327976
13482.685622 13482.700000 0.500000 -2.155674 58.136847 6.733706 2.444773
13483.193607 13483.200000 0.500000 -2.082494 58.106884 7.241221 2.599667
13483.685754 13483.700000 0.500000 -2.007765 58.081580 7.799687 2.798028
13484.169999 13484.200000 0.500000 -1.938445 58.074755 8.358560 3.006364
13484.678096 13484.700000 0.500000 -1.873152 58.085428 8.924165 3.230659
13485.178293 13485.200000 0.500000 -1.819184 58.093506 9.420326 3.444603
13485.702349 13485.700000 0.500000 -1.771939 58.101375 9.877409 3.661661
13486.186740 13486.200000 0.500000 -1.735057 58.101718 10.248571 3.852024
13486.710875 13486.700000 0.500000 -1.708270 58.089314 10.524564 4.016106
13487.195340 13487.200000 0.500000 -1.689610 58.081109 10.721277 4.154235
13487.703668 13487.700000 0.500000 -1.680200 58.071659 10.820882 4.255236
13488.180261 13488.200000 0.500000 -1.681031 58.060050 10.809727 4.300698
13488.656888 13488.700000 0.500000 -1.691029 58.049010 10.700160 4.299878
13489.189162 13489.200000 0.500000 -1.710132 58.043420 10.496689 4.253394
13489.689697 13489.700000 0.500000 -1.735738 58.034687 10.229780 4.173327
13490.206161 13490.200000 0.500000 -1.767683 58.029652 9.907298 4.067074
13490.682933 13490.700000 0.500000 -1.800864 58.003909 9.579697 3.946618
13491.199475 13491.200000 0.500000 -1.835005 57.968439 9.252504 3.822090
13491.692213 13491.700000 0.500000 -1.866412 57.932194 8.960817 3.704725
13492.177039 13492.200000 0.500000 -1.894307 57.926341 8.713427 3.598046
13492.693696 13492.700000 0.500000 -1.923996 57.927751 8.458745 3.486995
13493.194494 13493.200000 0.500000 -1.948027 57.939421 8.259555 3.394487
13493.679430 13493.700000 0.500000 -1.968299 57.946824 8.094843 3.316539
13494.172351 13494.200000 0.500000 -1.984838 57.953172 7.962931 3.249717
13494.689163 13494.700000 0.500000 -1.996004 57.950648 7.874168 3.201296
13495.182159 13495.200000 0.500000 -2.002524 57.941586 7.821777 3.170135
13495.714953 13495.700000 0.500000 -2.004348 57.936135 7.806782 3.155134
13496.192119 13496.200000 0.500000 -2.002851 57.925470 7.817040 3.153508
13496.709087 13496.700000 0.500000 -1.999674 57.912080 7.840106 3.157624
13497.186324 13497.200000 0.500000 -1.996019 57.905841 7.867962 3.166696
13497.671549 13497.700000 0.500000 -1.992924 57.898004 7.891284 3.174344
13498.180676 13498.200000 0.500000 -1.991321 57.884998 7.902168 3.180992
13498.697798 13498.700000 1.000000 -1.991557 115.742779 15.796894 6.369031
13499.732162 13499.690000 1.000000 -1.996355 115.655672 15.709444 6.368235
13500.718936 13500.690000 1.000000 -2.003513 115.650461 15.596708 6.369468
13501.737694 13501.710000 1.000000 -2.009147 115.655651 15.509772 6.391764
13502.772529 13502.760000 1.000000 -2.010062 115.626371 15.491669 6.437693
13503.847335 13503.820000 1.000000 -2.005085 115.602481 15.565735 6.515770
13504.922314 13504.900000 1.000000 -1.995046 115.551541 15.715859 6.614190
13506.021361 13506.000000 1.000000 -1.981134 115.518721 15.931499 6.729656
13507.128554 13507.120000 1.000000 -1.964714 115.483521 16.190322 6.858198
13508.283736 13508.260000 1.000000 -1.946479 115.453702 16.484000 6.990466
13509.431148 13509.410000 1.000000 -1.928416 115.408858 16.777938 7.113713
13510.602669 13510.590000 1.000000 -1.911961 115.366372 17.050032 7.213877
13511.782366 13511.780000 1.000000 -1.898361 115.326718 17.277558 7.278639
13513.034029 13513.000000 1.000000 -1.887375 115.275867 17.460706 7.307166
13514.277952 13514.230000 1.000000 -1.879911 115.235320 17.585342 7.304622
13515.490203 13515.480000 1.000000 -1.874665 115.193706 17.671450 7.283409
13516.758516 13516.750000 1.000000 -1.871345 115.151259 17.723674 7.254044
13518.074944 13518.040000 1.000000 -1.869528 115.109429 17.749460 7.224966
13519.367689 13519.350000 1.000000 -1.869035 115.066094 17.751532 7.198014
13520.692614 13520.680000 1.000000 -1.869851 115.011322 17.728611 7.177714
13522.057720 13522.030000 1.000000 -1.871887 114.972319 17.686555 7.165023
13523.423105 13523.400000 1.000000 -1.874594 114.925999 17.631628 7.156660
13524.772795 13524.780000 1.000000 -1.877894 114.879736 17.566459 7.149242
13526.210633 13526.190000 1.000000 -1.881627 114.797565 17.488492 7.138742
13527.624809 13527.610000 1.000000 -1.885868 114.732658 17.404634 7.127714
13529.063261 13529.050000 1.000000 -1.890284 114.718977 17.325887 7.117870
13530.502022 13530.510000 1.000000 -1.894602 114.658954 17.242196 7.102471
13532.021050 13531.990000 1.000000 -1.898265 114.599121 17.170199 7.090864
13533.516430 13533.490000 1.000000 -1.900467 114.501973 17.117912 7.084593
13535.004145 13535.010000 1.000000 -1.901190 114.280712 17.072472 7.078159
13536.572202 13536.550000 1.000000 -1.899776 112.762043 16.869438 7.004656
13538.156633 13538.110000 1.000000 -1.897969 113.226833 16.969610 7.057771
13539.701414 13539.680000 1.000000 -1.892840 113.774780 17.139423 7.136519
13541.294592 13541.280000 1.000000 -1.887206 113.913050 17.257204 7.190703
13542.904167 13542.890000 1.000000 -1.879631 114.449574 17.470321 7.286453
13544.554182 13544.530000 1.000000 -1.871701 114.412231 17.603671 7.344456
13546.196592 13546.180000 1.000000 -1.863860 114.345771 17.731928 7.401930
13547.839404 13547.850000 1.000000 -1.856606 114.285091 17.851553 7.454662
13549.570802 13549.540000 1.000000 -1.850599 114.220986 17.949036 7.501418
13551.262554 13551.250000 1.000000 -1.845744 114.149378 18.025071 7.540346
13552.986817 13552.980000 1.000000 -1.842035 114.067938 18.079147 7.572379
13554.751638 13554.730000 1.000000 -1.839529 113.917562 18.100620 7.589906
13556.540998 13556.490000 1.000000 -1.837791 112.629121 17.927026 7.530534
13558.290701 13558.280000 1.000000 -1.838094 112.792429 17.947583 7.551542
13560.089036 13560.080000 1.000000 -1.838282 113.859050 18.113891 7.635591
13561.952105 13561.910000 1.000000 -1.839581 113.834414 18.086468 7.640371
13563.775523 13563.750000 1.000000 -1.841321 113.724831 18.037647 7.636672
13565.639617 13565.610000 1.000000 -1.843168 113.121603 17.908865 7.596117
13567.496191 13567.490000 1.000000 -1.845601 113.477732 17.921584 7.611821
13569.417602 13569.390000 1.000000 -1.847780 113.597797 17.901500 7.611946
13571.355649 13571.310000 1.000000 -1.850174 113.453245 17.835969 7.589388
13573.270120 13573.250000 1.000000 -1.850756 112.360544 17.653894 7.516683
13575.201233 13575.210000 1.000000 -1.851524 112.296616 17.630312 7.511792
13577.197299 13577.180000 1.000000 -1.850380 113.352230 17.816419 7.589761
13579.193959 13579.180000 1.000000 -1.849564 113.344190 17.829684 7.595158
13581.199267 13581.190000 1.000000 -1.848314 113.270076 17.840324 7.599489
13583.221288 13583.220000 1.000000 -1.846558 113.193103 17.859538 7.606710
13585.308394 13585.280000 1.000000 -1.844422 113.125966 17.887104 7.617162
13587.371962 13587.350000 1.000000 -1.842259 113.024817 17.909812 7.628912
13589.428099 13589.440000 1.000000 -1.839890 112.775142 17.912634 7.630962
13591.589738 13591.550000 1.000000 -1.837715 112.074536 17.840103 7.604889
13593.687514 13593.680000 1.000000 -1.835178 112.191938 17.904153 7.637040
13595.818233 13595.820000 1.000000 -1.834574 111.315018 17.774946 7.589702
13598.038451 13597.990000 1.000000 -1.832860 112.821069 18.046343 7.712833
13600.194781 13600.180000 1.000000 -1.831981 112.778023 18.055325 7.722589
13602.367964 13602.380000 1.000000 -1.831093 112.656462 18.051890 7.726254
13604.622675 13604.600000 1.000000 -1.830640 112.564230 18.045277 7.728703
13606.870057 13606.850000 1.000000 -1.830258 112.545616 18.049180 7.731208
13609.126277 13609.110000 1.000000 -1.829847 112.483314 18.046606 7.725492
13611.415617 13611.390000 1.000000 -1.829430 112.372137 18.036295 7.716137
13613.705736 13613.690000 1.000000 -1.829341 112.593635 18.073457 7.726433
13616.004731 13616.010000 1.000000 -1.829080 112.576602 18.075427 7.720672
13618.369305 13618.350000 1.000000 -1.828908 112.504539 18.066970 7.710744
13620.710402 13620.700000 1.000000 -1.828460 112.363226 18.052373 7.700718
13623.084733 13623.080000 1.000000 -1.827705 112.369415 18.066992 7.704285
13625.484224 13625.470000 1.000000 -1.826802 112.300596 18.072243 7.708111
13627.876459 13627.890000 1.000000 -1.825535 112.219191 18.082036 7.716686
13630.350679 13630.320000 1.000000 -1.823982 112.075884 18.087006 7.723770
13632.785225 13632.770000 1.000000 -1.822353 112.077354 18.116737 7.746897
13635.269367 13635.250000 1.000000 -1.820432 112.007418 18.140242 7.770678
13637.770669 13637.740000 1.000000 -1.818417 111.923897 18.163282 7.791398
13640.256648 13640.250000 1.000000 -1.816427 111.858036 18.188749 7.815700
13642.816701 13642.770000 1.000000 -1.814236 111.767198 18.213838 7.837419
13645.345199 13645.320000 1.000000 -1.812315 111.684450 18.235367 7.858372
13647.899048 13647.890000 1.000000 -1.810719 111.600311 18.250722 7.875756
13650.494554 13650.470000 1.000000 -1.808955 111.470977 18.261764 7.886652
13653.107339 13653.080000 1.000000 -1.807431 110.638777 18.153072 7.847117
13655.721136 13655.700000 1.000000 -1.806269 111.367799 18.293924 7.915627
13658.376681 13658.350000 1.000000 -1.804961 111.349772 18.314906 7.933597
13661.041422 13661.010000 1.000000 -1.803923 111.263664 18.319758 7.944784
13663.699059 13663.690000 1.000000 -1.802781 111.188149 18.328242 7.957443
13666.422999 13666.390000 1.000000 -1.801809 111.108829 18.332980 7.966653
13669.164357 13669.110000 1.000000 -1.800761 111.020300 18.337573 7.979232
13671.874172 13671.850000 1.000000 -1.799558 110.934466 18.345446 7.989600
13674.658577 13674.600000 1.000000 -1.798501 110.847656 18.350487 8.000417
13677.435957 13677.380000 1.000000 -1.797491 110.766417 18.355564 8.009854
13680.206305 13680.170000 1.000000 -1.796159 110.673087 18.364544 8.018869
13683.035027 13682.990000 1.000000 -1.794964 110.596056 18.373698 8.029104
13685.873112 13685.820000 1.000000 -1.793883 110.507552 18.378858 8.034963
13688.712388 13688.670000 1.000000 -1.792820 110.419240 18.383699 8.039299
13691.577416 13691.550000 1.000000 -1.791941 110.332513 18.385412 8.046382
13694.484612 13694.440000 1.000000 -1.790656 110.251065 18.395458 8.054856
13697.393057 13697.350000 1.000000 -1.789535 110.177352 18.403777 8.063300
13700.286354 13700.270000 1.000000 -1.788207 110.078620 18.411724 8.068379
13703.254700 13703.220000 1.000000 -1.786832 110.005267 18.424770 8.077516
13706.232553 13706.190000 1.000000 -1.785531 109.912817 18.433265 8.083214
13709.170669 13709.170000 1.000000 -1.784242 109.839609 18.444739 8.089219
13712.233245 13712.180000 1.000000 -1.782945 109.745211 18.452803 8.094686
13715.223259 13715.200000 1.000000 -1.781721 109.667036 18.462250 8.102136
13718.263910 13718.250000 1.000000 -1.780490 109.581057 18.470502 8.110516
13721.338818 13721.310000 1.000000 -1.779087 109.493252 18.481609 8.119862
13724.431573 13724.390000 1.000000 -1.777804 109.410410 18.491334 8.132177
13727.525738 13727.490000 1.000000 -1.776557 109.326300 18.500168 8.144700
13730.654253 13730.610000 1.000000 -1.775149 109.226659 18.509361 8.158350
13733.775970 13733.750000 1.000000 -1.773944 109.142237 18.517355 8.171154
13736.915607 13736.900000 1.000000 -1.772739 109.056279 18.525065 8.183428
13740.114418 13740.080000 1.000000 -1.771418 108.968358 18.534606 8.195461
13743.314736 13743.270000 1.000000 -1.770196 108.872341 18.540925 8.205219
13746.533068 13746.490000 1.000000 -1.768846 108.781529 18.550484 8.213070
13749.752925 13749.720000 1.000000 -1.767580 108.686355 18.557725 8.219404
13753.023877 13752.970000 1.000000 -1.766050 108.565244 18.565436 8.224887
13756.288137 13756.250000 1.000000 -1.764703 108.484482 18.576635 8.233559
13759.562233 13759.540000 1.000000 -1.763170 108.393843 18.589577 8.242659
13762.895821 13762.850000 1.000000 -1.761621 108.296749 18.601721 8.254587
13766.214486 13766.170000 1.000000 -1.760190 108.183489 18.608873 8.266825
13769.543052 13769.520000 1.000000 -1.758544 108.089798 18.623392 8.279522
13772.906388 13772.890000 1.000000 -1.757131 107.995698 18.633495 8.295499
13776.321127 13776.270000 1.000000 -1.755511 107.898809 18.646949 8.309884
13779.720988 13779.680000 1.000000 -1.754182 107.804351 18.655409 8.323628
13783.097650 13783.100000 1.000000 -1.752381 107.693318 18.669787 8.336258
13786.575617 13786.550000 1.000000 -1.751035 107.604320 18.679491 8.350720
13790.047051 13790.010000 1.000000 -1.749499 107.497716 18.689671 8.363903
13793.503629 13793.490000 1.000000 -1.747922 107.409625 18.703820 8.376912
13796.995221 13796.990000 1.000000 -1.746519 107.295686 18.710205 8.389131
13800.538518 13800.510000 1.000000 -1.744792 107.202482 18.726272 8.402750
13804.067006 13804.050000 1.000000 -1.743299 107.092434 18.734995 8.415287
13807.605646 13807.600000 1.000000 -1.741586 106.990830 18.749318 8.431027
13811.212782 13811.180000 1.000000 -1.740099 106.892346 18.759928 8.446170
13814.813485 13814.780000 1.000000 -1.738415 106.715097 18.760379 8.456442
13818.391061 13818.390000 1.000000 -1.736934 106.672790 18.780738 8.475070
13822.062316 13822.020000 1.000000 -1.735315 106.560186 18.791323 8.488244
13825.727192 13825.680000 1.000000 -1.733777 106.425413 18.796440 8.501151
13829.368967 13829.350000 1.000000 -1.732178 106.337531 18.810970 8.513226
13833.071197 13833.040000 1.000000 -1.730374 106.219138 18.823963 8.523996
13836.808887 13836.750000 1.000000 -1.728709 106.132938 18.840031 8.538325
13840.523512 13840.480000 1.000000 -1.727113 106.015327 18.849206 8.549725
13844.256899 13844.220000 1.000000 -1.725374 105.909439 18.863152 8.561350
13848.034211 13847.990000 1.000000 -1.723655 105.749643 18.867094 8.571476
13851.805223 13851.780000 1.000000 -1.721838 105.575447 18.870266 8.579504
13855.595085 13855.580000 1.000000 -1.720190 105.441859 18.877488 8.590888
13859.462568 13859.410000 1.000000 -1.718461 105.387943 18.900477 8.608630
13863.298647 13863.250000 1.000000 -1.716650 105.268139 18.913214 8.621282
13867.145274 13867.110000 1.000000 -1.714940 105.119099 18.918750 8.632666
13871.002463 13870.990000 1.000000 -1.713186 104.953669 18.922150 8.640277
13874.920696 13874.890000 1.000000 -1.711384 104.771003 18.923276 8.648748
13878.841166 13878.810000 1.000000 -1.709632 104.470598 18.902105 8.645659
13882.755454 13882.750000 1.000000 -1.707966 104.244193 18.892593 8.650463
13886.730949 13886.710000 1.000000 -1.706056 104.017605 18.887564 8.654730
13890.691886 13890.680000 1.000000 -1.704342 103.919721 18.902165 8.673401
13894.705715 13894.680000 1.000000 -1.702602 103.599166 18.876676 8.670234
13898.721889 13898.690000 1.000000 -1.700836 103.612820 18.912535 8.697464
13902.757298 13902.730000 1.000000 -1.699079 103.463638 18.918516 8.711065
13906.778176 13906.780000 1.000000 -1.697176 103.526367 18.966043 8.741254
13910.911316 13910.850000 1.000000 -1.695642 103.388104 18.969796 8.754517
13914.970801 13914.940000 1.000000 -1.693668 103.259202 18.983581 8.769652
13919.083468 13919.050000 1.000000 -1.691923 103.057597 18.979598 8.777953
13923.249412 13923.180000 1.000000 -1.690120 103.001133 19.003445 8.797121
13927.392450 13927.330000 1.000000 -1.688144 102.925118 19.026976 8.818079
13931.529501 13931.490000 1.000000 -1.686403 102.879740 19.051727 8.839777
13935.745402 13935.680000 1.000000 -1.684432 102.778045 19.070438 8.855998
13939.929920 13939.880000 1.000000 -1.682643 102.659184 19.082493 8.872695
13944.142464 13944.110000 1.000000 -1.680757 102.500835 19.089039 8.885957
13948.374583 13948.350000 1.000000 -1.678851 102.397580 19.106189 8.903088
13952.651829 13952.610000 1.000000 -1.677130 102.255360 19.112510 8.916087
13956.923214 13956.890000 1.000000 -1.675092 102.094781 19.121429 8.928235
13961.222792 13961.190000 1.000000 -1.673173 101.850151 19.112259 8.935551
13965.542090 13965.510000 1.000000 -1.671277 101.417697 19.067213 8.919426
13969.872617 13969.850000 1.000000 -1.668579 94.658397 17.844511 8.357171
13974.222924 13974.210000 1.000000 -1.667678 102.064319 19.257977 9.028089
13978.635734 13978.590000 1.000000 -1.665698 101.903446 19.265737 9.041415
13982.991557 13982.980000 1.000000 -1.663688 101.732656 19.272128 9.054900
13987.409965 13987.400000 1.000000 -1.661916 101.587292 19.278728 9.067610
13991.831195 13991.830000 1.000000 -1.660013 101.445297 19.288446 9.083274
13996.315168 13996.280000 1.000000 -1.658139 101.297369 19.296460 9.097153
14000.776350 14000.750000 1.000000 -1.656238 101.170496 19.308957 9.115313
14005.283260 14005.240000 1.000000 -1.654204 101.048201 19.324886 9.132634
14009.793102 14009.750000 1.000000 -1.652354 100.919036 19.335926 9.147854
14014.331626 14014.280000 1.000000 -1.650491 100.781161 19.345513 9.162426
14018.890297 14018.830000 1.000000 -1.648403 100.639215 19.358641 9.176594
14023.426184 14023.400000 1.000000 -1.646512 100.515379 19.371417 9.191604
14028.016633 14027.980000 1.000000 -1.644555 100.372043 19.381685 9.205590
14032.644537 14032.590000 1.000000 -1.642671 100.235469 19.391820 9.220922
14037.232474 14037.210000 1.000000 -1.640734 100.114498 19.405972 9.237355
14041.918222 14041.860000 1.000000 -1.638887 99.976240 19.414990 9.251219
14046.572643 14046.520000 1.000000 -1.636839 99.855755 19.431344 9.268426
14051.230181 14051.200000 1.000000 -1.634973 99.741619 19.445398 9.286744
14055.951276 14055.900000 1.000000 -1.632903 99.587522 19.455586 9.301158
14060.606460 14060.620000 1.000000 -1.631068 99.444097 19.463242 9.316227
14065.411733 14065.360000 1.000000 -1.629006 99.301776 19.475498 9.331106
14070.177067 14070.110000 1.000000 -1.627123 98.964840 19.445997 9.327868
14074.928349 14074.890000 1.000000 -1.623569 92.446057 18.229774 8.750985
14079.786833 14079.690000 1.000000 -1.623050 98.839267 19.500586 9.374855
14084.596689 14084.500000 1.000000 -1.621104 98.850423 19.540790 9.404377
14089.878353 14089.330000 1.000000 -1.619074 98.694622 19.549637 9.419059
14094.243730 14094.190000 1.000000 -1.617334 98.541805 19.553356 9.433255
14099.089633 14099.060000 1.000000 -1.615254 98.370467 19.560008 9.446385
14103.956289 14103.950000 1.000000 -1.613221 98.196067 19.565062 9.458541
14108.887237 14108.860000 1.000000 -1.611311 97.733106 19.510035 9.443782
14113.786846 14113.790000 1.000000 -1.609386 97.705747 19.542166 9.471088
14118.759588 14118.730000 1.000000 -1.605115 92.679444 18.616197 9.029138
14123.718434 14123.700000 1.000000 -1.605364 98.005993 19.681210 9.560584
14128.750594 14128.690000 1.000000 -1.603283 97.755934 19.671893 9.566352
14133.733994 14133.690000 1.000000 -1.601293 97.576235 19.674837 9.580687
14138.764629 14138.720000 1.000000 -1.599330 97.450628 19.688128 9.596326
14143.833856 14143.760000 1.000000 -1.597266 97.326814 19.703739 9.615652
14148.889255 14148.820000 1.000000 -1.595315 97.164360 19.709260 9.630966
14153.948307 14153.900000 1.000000 -1.593395 96.979239 19.709520 9.642796
14159.037299 14159.000000 1.000000 -1.591388 96.568627 19.665496 9.631223
14164.173832 14164.120000 1.000000 -1.589294 90.342663 18.436185 9.038107
14169.296580 14169.260000 1.000000 -1.587279 96.573312 19.747434 9.690917
14174.458198 14174.420000 1.000000 -1.585346 96.510248 19.772715 9.714640
14179.649979 14179.600000 1.000000 -1.583265 96.329097 19.776710 9.730197
14184.836807 14184.790000 1.000000 -1.581149 96.231782 19.798595 9.748637
14190.045072 14190.010000 1.000000 -1.579340 96.097005 19.806656 9.765479
14195.292430 14195.240000 1.000000 -1.577136 95.962635 19.822597 9.782930
14200.543710 14200.490000 1.000000 -1.575192 95.807670 19.829100 9.797359
14205.798914 14205.760000 1.000000 -1.573087 95.665484 19.841389 9.814481
14211.084530 14211.050000 1.000000 -1.571059 95.516800 19.850783 9.829509
14216.400622 14216.360000 1.000000 -1.568979 95.372523 19.862063 9.846906
